Folder: nomad-hysprint-jupyter-scripts/Data_uploader

File: JV_2.txt
Date	20:40:13 - 25.09.2024
Location	HYDIRIS05
Sample	2
User	Juan José
Folder	C:/Data/Juan José/20240925/
Voltage_start (V)	-0.2
Voltage_end (V)	1.2
Voltage_step (V)	0.05
Averaged Points	1
Integration time(s)	0.1
Setting time (s)	0.1
Current limit (mA)	100
Cell area(cm²)	[0.16, 0.16, 0.16, 0.16, 0.16, 0.16]
Light soaking (s)	0
Soaking bias (V)	0
Power Density (mW/cm²)	100
Material	FAPbI3
Additives	MACl
Concentration	0.7 M
Solvents	2-ME/ACN/DMI
Solvents Ratio	52.5/40/7.5
Substrate	ITO
Temperature ('C)
Water content (ppm)
Oxygen content (ppm)
Ref. Current(mA)	0
Sun%	0
SuSi Intensity (%)	102.7
Comments
--
	a_Forward_Light	a_Reverse_Light	b_Forward_Light	b_Reverse_Light	c_Forward_Light	c_Reverse_Light	d_Forward_Light	d_Reverse_Light	e_Forward_Light	e_Reverse_Light	f_Forward_Light	f_Reverse_Light
Voc(V)	1.17434	1.17772	0.00648543	0.00653252	1.18132	1.1816	1.18192	1.18196	1.17322	1.1733	1.17604	1.1763
Jsc(mA/cm2)	-22.049	-21.9938	-13.1937	-13.3097	-39.40795	-40.3059	-21.3979	-21.5101	-41.927	-26.5818	-22.1259	-22.1254
FF(%)	72.8959	75.0737	-8.55936e-13	-1.69953e-11	47.7826	47.1493	74.8316	74.6152	39.1996	61.1686	71.6321	72.0553
PCE(%)	18.8749	19.4461	7.32395e-16	1.47767e-14	22.2444	22.4551	18.9253	18.9702	19.2821	19.0775	18.6394	18.7532
V_mpp(V)	0.9	0.95	-5.55112e-17	-1.11022e-15	0.95	0.9	1	0.95	0.95	0.95	0.95	0.95
J_mpp(mA/cm2)	-20.9721	-20.4696	-13.1937	-13.3097	-23.4152	-24.9501	-18.9253	-19.9686	-20.297	-20.0815	-19.6204	-19.7402
P_mpp(mW/cm2)	-18.8749	-19.4461	7.32395e-16	1.47767e-14	-22.2444	-22.4551	-18.9253	-18.9702	-19.2821	-19.0775	-18.6394	-18.7532
R_series(Ohmcm2)	7.29047	6.8037	0.491556	0.490809	6.01966	6.01435	5.85823	5.87991	6.25046	6.25851	5.82359	5.80248
R_shunt(Ohmcm2)	2719.07	5100.45	0.491614	0.490747	26.2846	132.839	766.603	1232.76	21.5149	133.447	1850.17	5227.01
Temperature(°C)	19.26	19.15	19.27	19.27	19.25	19.29	19.29	19.3	19.24	19.21	19.28	19.12
Time	25.09.2024 18:36:45	25.09.2024 18:37:00	25.09.2024 18:37:15	25.09.2024 18:37:30	25.09.2024 18:37:45	25.09.2024 18:38:00	25.09.2024 18:38:15	25.09.2024 18:38:31	25.09.2024 18:38:46	25.09.2024 18:39:03	25.09.2024 18:39:19	25.09.2024 18:39:37
--
Voltage (V)_a_Forward_Light	Current Density(mA/cm²)_a_Forward_Light	Voltage (V)_a_Reverse_Light	Current Density(mA/cm²)_a_Reverse_Light	Voltage (V)_b_Forward_Light	Current Density(mA/cm²)_b_Forward_Light	Voltage (V)_b_Reverse_Light	Current Density(mA/cm²)_b_Reverse_Light	Voltage (V)_c_Forward_Light	Current Density(mA/cm²)_c_Forward_Light	Voltage (V)_c_Reverse_Light	Current Density(mA/cm²)_c_Reverse_Light	Voltage (V)_d_Forward_Light	Current Density(mA/cm²)_d_Forward_Light	Voltage (V)_d_Reverse_Light	Current Density(mA/cm²)_d_Reverse_Light	Voltage (V)_e_Forward_Light	Current Density(mA/cm²)_e_Forward_Light	Voltage (V)_e_Reverse_Light	Current Density(mA/cm²)_e_Reverse_Light	Voltage (V)_f_Forward_Light	Current Density(mA/cm²)_f_Forward_Light	Voltage (V)_f_Reverse_Light	Current Density(mA/cm²)_f_Reverse_Light
-0.2	-22.1487	1.2	3.2742	-0.2	-419.845	1.2	624.996	-0.2	-41.2962	1.2	3.05912	-0.2	-21.7885	1.2	3.06786	-0.2	-42.7217	1.2	4.26645	-0.2	-22.256	1.2	4.08433
-0.15	-22.1002	1.15	-4.07475	-0.15	-318.286	1.15	624.996	-0.15	-40.9465	1.15	-5.25433	-0.15	-21.6078	1.15	-5.43568	-0.15	-42.4611	1.15	-3.72267	-0.15	-22.19165	1.15	-4.53268
-0.1	-22.0704	1.1	-10.3157	-0.1	-216.638	1.1	624.997	-0.1	-41.6521	1.1	-12.265	-0.1	-21.5234	1.1	-12.0896	-0.1	-42.3033	1.1	-10.3024	-0.1	-22.1467	1.1	-11.2403
-0.05	-22.0855	1.05	-15.2317	-0.05	-114.925	1.05	624.997	-0.05	-40.42575	1.05	-17.6439	-0.05	-21.4676	1.05	-16.522	-0.05	-42.1661	1.05	-15.2355	-0.05	-22.1232	1.05	-15.7751
-5.55112e-17	-22.049	1	-18.5914	-5.55112e-17	-13.1937	1	624.997	-5.55112e-17	-39.40795	1	-21.2024	-5.55112e-17	-21.3979	1	-18.916	-5.55112e-17	-41.927	1	-18.3719	-5.55112e-17	-22.1259	1	-18.37395
0.05	-22.0433	0.95	-20.4696	0.05	88.5241	0.95	624.998	0.05	-34.8089	0.95	-23.4886	0.05	-21.3532	0.95	-19.9686	0.05	-33.0082	0.95	-20.0815	0.05	-22.0812	0.95	-19.7402
0.1	-22.0176	0.9	-21.2841	0.1	190.2745	0.9	624.997	0.1	-34.7026	0.9	-24.9501	0.1	-21.3383	0.9	-20.3433	0.1	-29.3026	0.9	-20.9446	0.1	-22.0604	0.9	-20.5062
0.15	-22.0039	0.85	-21.5608	0.15	292.051	0.85	624.998	0.15	-26.0073	0.85	-25.9641	0.15	-21.2812	0.85	-20.5113	0.15	-28.2507	0.85	-21.525	0.15	-22.0532	0.85	-21.0067
0.2	-22.022	0.8	-21.6777	0.2	393.81	0.8	624.999	0.2	-26.3827	0.8	-26.9067	0.2	-21.2476	0.8	-20.6481	0.2	-27.6131	0.8	-22.0297	0.2	-22.0381	0.8	-21.3277
0.25	-21.9787	0.75	-21.7396	0.25	495.55	0.75	624.999	0.25	-26.06	0.75	-27.8339	0.25	-21.2296	0.75	-20.7526	0.25	-26.9478	0.75	-22.4594	0.25	-22.019	0.75	-21.5497
0.3	-21.9693	0.7	-21.7648	0.3	597.232	0.7	624.999	0.3	-25.8008	0.7	-28.8844	0.3	-21.1912	0.7	-20.8237	0.3	-26.5122	0.7	-22.8804	0.3	-22.0171	0.7	-21.69855
0.35	-21.9625	0.65	-21.805	0.35	625.002	0.65	624.999	0.35	-34.193	0.65	-29.8324	0.35	-21.1468	0.65	-20.8954	0.35	-26.1094	0.65	-23.3061	0.35	-21.9897	0.65	-21.8157
0.4	-21.9386	0.6	-21.8217	0.4	625.004	0.6	625.001	0.4	-32.1144	0.6	-30.7546	0.4	-21.1106	0.6	-20.9447	0.4	-25.6281	0.6	-23.6906	0.4	-21.9641	0.6	-21.88545
0.45	-21.9127	0.55	-21.8398	0.45	625.001	0.55	625	0.45	-30.2254	0.55	-31.8571	0.45	-21.0562	0.55	-21.0164	0.45	-25.19445	0.55	-24.1243	0.45	-21.9551	0.55	-21.9047
0.5	-21.8985	0.5	-21.88	0.5	625.001	0.5	625.001	0.5	-31.3734	0.5	-32.9566	0.5	-21.0324	0.5	-21.073	0.5	-24.83995	0.5	-24.5015	0.5	-21.9175	0.5	-21.9553
0.55	-21.8726	0.45	-21.878	0.55	625.001	0.45	625.001	0.55	-29.2068	0.45	-34.0364	0.55	-20.993	0.45	-21.1159	0.55	-24.42185	0.45	-24.8556	0.55	-21.8663	0.45	-21.9701
0.6	-21.8448	0.4	-21.8798	0.6	625.0	0.4	625.004	0.6	-28.2741	0.4	-35.10565	0.6	-20.9222	0.4	-21.1712	0.6	-23.9836	0.4	-25.2252	0.6	-21.8192	0.4	-21.9901
0.65	-21.8306	0.35	-21.9323	0.65	624.999	0.35	625.002	0.65	-27.7205	0.35	-35.8288	0.65	-20.87305	0.35	-21.1931	0.65	-23.5712	0.35	-25.70055	0.65	-21.7826	0.35	-22.0133
0.7	-21.78115	0.3	-21.9105	0.7	624.999	0.3	597.719	0.7	-26.6849	0.3	-36.8058	0.7	-20.8122	0.3	-21.2616	0.7	-23.1621	0.3	-26.0306	0.7	-21.6548	0.3	-22.0315
0.75	-21.7402	0.25	-21.9465	0.75	624.999	0.25	495.939	0.75	-25.9073	0.25	-37.6494	0.75	-20.726	0.25	-21.2928	0.75	-22.7028	0.25	-26.3701	0.75	-21.49035	0.25	-22.0644
0.8	-21.6866	0.2	-21.9611	0.8	624.999	0.2	394.079	0.8	-26.2356	0.2	-38.878	0.8	-20.6073	0.2	-21.3422	0.8	-22.27	0.2	-26.7091	0.8	-21.276	0.2	-22.0641
0.85	-21.48305	0.15	-21.9685	0.85	624.998	0.15	292.26	0.85	-25.3549	0.15	-38.9741	0.85	-20.5066	0.15	-21.3672	0.85	-21.7934	0.15	-26.9403	0.85	-20.9151	0.15	-22.1018
0.9	-20.9721	0.1	-21.9831	0.9	624.997	0.1	190.426	0.9	-24.4797	0.1	-38.9202	0.9	-20.3	0.1	-21.4158	0.9	-21.2161	0.1	-26.9815	0.9	-20.4133	0.1	-22.0981
0.95	-19.7738	0.05	-21.9985	0.95	624.999	0.05	88.563	0.95	-23.4152	0.05	-40.0833	0.95	-19.9179	0.05	-21.466	0.95	-20.297	0.05	-26.8173	0.95	-19.6204	0.05	-22.1311
1	-17.4376	-1.11022e-15	-21.9938	1	624.997	-1.11022e-15	-13.3097	1	-21.325	-1.11022e-15	-40.3059	1	-18.9253	-1.11022e-15	-21.5101	1	-18.5781	-1.11022e-15	-26.5818	1	-18.256	-1.11022e-15	-22.1254
1.05	-13.9052	-0.05	-22.0148	1.05	624.997	-0.05	-115.192	1.05	-17.7162	-0.05	-40.6753	1.05	-16.56455	-0.05	-21.5362	1.05	-15.4187	-0.05	-26.2971	1.05	-15.6955	-0.05	-22.1384
1.1	-9.18129	-0.1	-22.0137	1.1	624.997	-0.1	-217.107	1.1	-12.255	-0.1	-41.1852	1.1	-12.1244	-0.1	-21.5572	1.1	-10.3857	-0.1	-25.6599	1.1	-11.1738	-0.1	-22.1507
1.15	-3.338295	-0.15	-22.0108	1.15	624.996	-0.15	-319.0105	1.15	-5.20305	-0.15	-41.1638	1.15	-5.44808	-0.15	-21.6079	1.15	-3.71501	-0.15	-24.9527	1.15	-4.47152	-0.15	-22.1475
1.2	3.51998	-0.2	-22.0568	1.2	624.996	-0.2	-420.927	1.2	3.10306	-0.2	-41.3633	1.2	3.08691	-0.2	-21.6738	1.2	4.2844	-0.2	-24.43	1.2	4.11424	-0.2	-22.171